      Phi(Deg.)      RCS(dBm2)     ARG(Deg.)
         0.0000       -24.7168        62.8953
         1.0000       -24.2698        60.2919
         2.0000       -23.9162        56.2313
         3.0000       -23.3581        54.0959
         4.0000       -22.9593        49.6820
         5.0000       -22.6341        42.7881
         6.0000       -22.3724        33.3246
         7.0000       -22.3903        19.8613
         8.0000       -23.1377         2.7020
         9.0000       -25.4054       -13.2188
        10.0000       -29.0838        -4.2925
        11.0000       -24.9326        12.1860
        12.0000       -21.3388       -20.3860
        13.0000       -22.8057       -65.1220
        14.0000       -29.5193       -51.3547
        15.0000       -21.5280       -65.7341
        16.0000       -23.5844      -123.9736
        17.0000       -24.3056       -92.3104
        18.0000       -21.6420      -156.7737
        19.0000       -24.9231      -135.9546
        20.0000       -22.1035       154.4780
        21.0000       -23.2860       172.6118
        22.0000       -24.5295        96.9778
        23.0000       -20.6053        99.5169
        24.0000       -26.9204        78.6659
        25.0000       -22.0172        17.4342
        26.0000       -20.6314        14.7846
        27.0000       -25.2908        -7.6919
        28.0000       -24.2001       -80.0254
        29.0000       -20.3116       -99.8150
        30.0000       -21.3031      -114.7091
        31.0000       -24.9775      -154.9927
        32.0000       -23.5582       141.0036
        33.0000       -20.5525       107.9371
        34.0000       -19.9357        81.5994
        35.0000       -21.2706        51.8598
        36.0000       -23.2562         7.6660
        37.0000       -23.6778       -51.9655
        38.0000       -21.5966      -103.1034
        39.0000       -19.9510      -143.4954
        40.0000       -19.2963       178.7398
        41.0000       -19.4592       140.0212
        42.0000       -20.3847        97.2316
        43.0000       -21.4748        47.3949
        44.0000       -22.0531        -9.0828
        45.0000       -21.5010       -68.0575
        46.0000       -20.3709      -122.6637
        47.0000       -19.4430      -173.8827
        48.0000       -18.7506       135.7242
        49.0000       -18.2950        84.5557
        50.0000       -18.0070        33.9632
        51.0000       -17.9839       -18.0482
        52.0000       -18.2853       -71.3555
        53.0000       -18.4282      -128.1935
        54.0000       -18.6347       173.3948
        55.0000       -18.7426       113.2987
        56.0000       -18.7606        52.4373
        57.0000       -18.6493        -9.4310
        58.0000       -18.4503       -71.5089
        59.0000       -18.0760      -135.3078
        60.0000       -17.4248       161.3297
        61.0000       -17.0915        99.5951
        62.0000       -16.7604        36.6467
        63.0000       -16.2830       -26.7793
        64.0000       -15.9462       -90.9312
        65.0000       -15.5463      -155.1732
        66.0000       -15.2603       140.8437
        67.0000       -15.0637        75.9173
        68.0000       -14.8808        10.8586
        69.0000       -14.6611       -55.8593
        70.0000       -14.3828      -122.4176
        71.0000       -14.2337       170.7579
        72.0000       -14.1245       103.0696
        73.0000       -13.9874        34.2463
        74.0000       -13.7472       -34.5621
        75.0000       -13.5553      -103.4616
        76.0000       -13.4325      -172.6847
        77.0000       -13.3063       116.9150
        78.0000       -13.0879        46.3435
        79.0000       -12.8399       -24.2702
        80.0000       -12.6648       -94.7550
        81.0000       -12.5067      -166.1493
        82.0000       -12.3018       122.0703
        83.0000       -12.0013        50.2056
        84.0000       -11.7435       -21.2297
        85.0000       -11.5201       -92.9577
        86.0000       -11.3355      -165.1537
        87.0000       -11.0527       122.2310
        88.0000       -10.7376        49.9149
        89.0000       -10.3835       -22.0303
        90.0000        -9.4688       -91.8977
        91.0000        -9.9236      -158.1924
        92.0000        -9.6269       129.4518
        93.0000        -9.3584        57.0357
        94.0000        -9.0114       -15.0823
        95.0000        -8.7439       -87.1628
        96.0000        -8.4385      -159.0016
        97.0000        -8.1858       128.8749
        98.0000        -7.8603        57.1083
        99.0000        -7.5588       -14.6885
       100.0000        -7.2266       -85.8219
       101.0000        -6.9505      -157.0678
       102.0000        -6.6607       132.1294
       103.0000        -6.3833        61.0780
       104.0000        -6.0685        -9.3604
       105.0000        -5.7583       -79.7601
       106.0000        -5.4524      -149.4300
       107.0000        -5.1681       140.8394
       108.0000        -4.8863        71.6614
       109.0000        -4.5899         2.4370
       110.0000        -4.2849       -66.0610
       111.0000        -3.9734      -134.3883
       112.0000        -3.6857       158.0188
       113.0000        -3.3775        90.8539
       114.0000        -3.0864        23.6501
       115.0000        -2.7969       -42.9016
       116.0000        -2.4695      -109.1565
       117.0000        -2.1631      -174.5656
       118.0000        -1.8466       120.7627
       119.0000        -1.5557        56.2623
       120.0000        -1.3173        -7.7942
       121.0000        -1.0362       -71.2686
       122.0000        -0.7114      -134.4706
       123.0000        -0.3960       163.0138
       124.0000        -0.0581       101.3802
       125.0000         0.2808        40.5471
       126.0000         0.5925       -19.5608
       127.0000         0.8509       -79.0934
       128.0000         1.0842      -138.3000
       129.0000         1.3303       163.1167
       130.0000         1.5971       104.9400
       131.0000         1.9012        47.4584
       132.0000         2.2465        -9.3189
       133.0000         2.5973       -65.1088
       134.0000         2.9419      -119.9655
       135.0000         3.2612      -173.8701
       136.0000         3.5354       133.0320
       137.0000         3.7861        80.5711
       138.0000         3.9987        28.7037
       139.0000         4.2057       -22.5494
       140.0000         4.4061       -73.2976
       141.0000         4.6230      -123.4732
       142.0000         4.8709      -172.9254
       143.0000         5.1276       138.3686
       144.0000         5.4139        90.5523
       145.0000         5.7202        43.6024
       146.0000         6.0127        -2.3394
       147.0000         6.3089       -47.3532
       148.0000         6.5708       -91.4025
       149.0000         6.8030      -134.5494
       150.0000         7.0031      -176.8573
       151.0000         7.1577       141.5979
       152.0000         7.2720       100.8905
       153.0000         7.3511        60.7886
       154.0000         7.3955        21.3875
       155.0000         7.3957       -17.4168
       156.0000         7.3700       -55.2073
       157.0000         7.2875       -88.8154
       158.0000         7.0629      -123.1177
       159.0000         6.7816      -157.4098
       160.0000         6.4594       168.3428
       161.0000         6.1184       134.6146
       162.0000         5.7480       101.2523
       163.0000         5.3042        68.4191
       164.0000         4.8204        35.9945
       165.0000         4.2559         4.3233
       166.0000         3.6016       -27.1641
       167.0000         2.8757       -57.9282
       168.0000         2.0188       -88.2178
       169.0000         1.0489      -117.9229
       170.0000        -0.0980      -148.3855
       171.0000        -1.4460      -178.5741
       172.0000        -3.0205       151.6012
       173.0000        -4.8807       122.1675
       174.0000        -7.1242        92.9593
       175.0000        -9.8915        64.2213
       176.0000       -13.3583        36.1276
       177.0000       -17.9489         9.1022
       178.0000       -24.6775       -14.8612
       179.0000       -34.9751       -30.2062
       180.0000      -140.0000         0.0000